Branch,student_name,university_seat_number,Name of the Company/Drive,CTC offered,"Provide aptitude round/test details( Quantitative aptitude, Reasoning and Verbal ability )",Provide JAM session details if any,Provide group discussion details if any,Provide Personal Interview experience. List out the questions asked in personal interaction round.,Provide the list of technical questions asked during the interview (technical subject related),Provide the list of programming questions asked during the selection process. Also mention the programming language.,"Online Exam Pattern
","Important Links for Placement Preparation
"
BE-CSE,Bhoomika Doddagatti,1CR22CS044,ThermoFisher,12.95 LPA,,MA,,"Tell me about your self ?
Family Background ?
Projects 
What did you learn in DBMS?
How you managed good consistency in your percentage?
Your field of interest","Tell me about your self ?
Family Background ?
Projects 
What did you learn in DBMS?
How you managed good consistency in your percentage?
Your field of interest",,,
AInDS*,Bhagyalakshmi J,1CR22CD007,Thermo Fisher,12.95 LPA,,,,,"Explain Ansible , maven,gradle ,azure,jenkins ,devops,OOP's concepts, explain any 1 project",For and while loop questions,,
AIML*,Ananya N Wasanad,1CR22AI135,Thermo Fisher,12.95,,,,"OOPS , reverse a string , Functions","OOPS , reverse a string , Functions",Python,"Resume shortlisting, Interview",
BE-CSE,Ananya Choudhury,1CR22CS021,Thermo fisher,12.95,,,,"What role did you take in college club how did you resolve a issue arised among your teammates. 
While making project in college tell any challenges you faced.","Ai, ml, dl difference. 
Types of ml models
What is llm and hallucinations
Which ai tool do you use frequently and why do you use it. 
How did you make the admin and user logins and what to do if there is any security threat. 
How did you collect data set for your projects. What to do with error or faulty data.","Given a list of numbers how to normalise them. 
Given a set of 5 documents for finding a given word in the documents print the top 3 documents with the result. 
Python program.",,
AIML*,Gaurav S Bhatti,1CR22CI019,Thermo Fisher,12.95lp,-,-,-,"introduce urself 
Explain one of ur project - workflow 
Question about other projects 
Challenges faced in internship 
Say about seminar u attended 
What is NLP 
Difference between NLP and LLM
What LLM did u use in ur project 
Custom build or api LLM
How did u deploy the app 
What is sentiment analysis 
U have 5 sentences. Find 3 sentences that are the most similarity 
Scenario based questions:
On one of the projects wins a hackthon but ur name is not there. What do u do?
U and ur teammate are disagreeing each others ideas what do u do ? 
One of ur teammates doesn’t like ur idea what do u do ?
Ur idea is better prove me that 
What languages are u comfortable with ? 
Write a python code to reverse a sentence ?
What does ur dad and mom do? 
Where are u from?
What will u do in place of conflict?
Do u take leadership role ?",-,-,-,-
BE-ECE,Tanusha R,1CR22EC224,Thermo fisher scientific,12.95lpa,Na,Na,Na,"Tell me about yourself.
Tell me about your family .
Explain your projects .
What was your contribution in the project .
What were the conflicts you had with your team during the project implementation .
How did you convince your team mates for your opinion .
What are your hobbies . 
Why do you want to join Thermo fisher","What is cloud , cloud optimization . Few aptitude based questions or logical reasoning questions were asked .","Basic python programming syntax such as types of loops , how do you break the loop , difference between class and function , how do you call a function …. 
About SQL . Majorly about the languages mentioned in resume .",,
