Branch,student_name,university_seat_number,Name of the Company/Drive,CTC offered,"Provide aptitude round/test details( Quantitative aptitude, Reasoning and Verbal ability )",Provide Personal Interview experience. List out the questions asked in personal interaction round.,Provide the list of technical questions asked during the interview (technical subject related),Online Exam Pattern
BE-EEE,V MITHIL REDDY,1CR22EE437,MEGHA ENGINEERING INFRASTRUCTURE LTD / 04/03/25,3LPA,"Core Questions
 1. 3ph connection phase to Phase Degree
 2. Capacitance SI Unit
 3. Resistor SI Unit
 4. Indicator Si unit
 5. What is the total resistance in a series circuit with a 10Ω and a 20Ω resistor?
 6. What is the use of a circuit breaker?
 7. Which of the following is a major cause of power loss in transmission lines?
 8.Dielectric loss Core loss Resistive loss Capacitive loss
 The main purpose of a capacitor in an AC circuit is to:
 9. To change the voltage
 To store energy
 The power factor of an ideal pure resistive circuit is:","1.Tell me about your self 
 2. Family background 
 3. Tell me what I explained in PPT in 1min
 4. COMPANY TURNOVER","1. Regarding Projects
 2. How do you control RPM of a Motor 
 3. Battery Capacity 
 4. Solar Panel output",GOOGLE FORMS
