Synoptics Technologies Limited,Name,USN,Name of the Company/Drive,CTC offered,"Provide aptitude round/test details( Quantitative aptitude, Reasoning and Verbal ability )",Provide JAM session details if any,Provide group discussion details if any,Provide Personal Interview experience. List out the questions asked in personal interaction round.,Provide the list of technical questions asked during the interview (technical subject related),Provide the list of programming questions asked during the selection process. Also mention the programming language.,"Important Links for Placement Preparation
",Online Exam Pattern
BE-ISE,Tankala Meghana,1CR21IS166,7 eleven,8,Not needed,Not needed,Na,More about resume.. and projects,"1. Write python code for the given problem
 2. Join concept questions in sql
 3. About Hadoop and big data",Fibonacci.. permutations.. join in sql,,-
AInDS*,Adarsh Rao,1CR22AD400,7 eleven global solutions,8,,,,"- Tell me about yourself
 - What are your strengths and weaknesses?
 - Why do you want to work here?
 - Tell me about your projects and internship experience","- Provided code snippets and asked follow-up questions based on them
 - Questions on frequency counting and usage of counters
 - Basic SQL and transactional queries
 - Technical questions related to personal projects and internship experience",Multiple questions on python and sql,,
AIML*,Salil V Solomon,1CR21AI049,7-11 GLOBAL SOLUTIONS CENTER,"25,000/month for 6 months internship (Post Conversion 8LPA CTC)",,,,"1)Candidates were selected based on resume shortlisting, for Data Engg. intern role the resume should have related projects along with python libraries like pandas, numpy etc. and sql.
 2) T1- Discussion about resume and internships, python theoretical questions, sql theoretical questions, codes like palindrome, hash-maps or dictionaries, python data structures, queries like second highest salary, common table expressions etc.
 3) T2- Interview was taken by Lead ML engineer, no python and sql questions asked, discussion started with ML and projects, topics like collinearity, curse of dimensionality, one hot encoding, undersampling and oversampling, ML models, linear regression equations and best fit had to be judges based on a graph drawn by the interviewer, epsilon or bias meaning in wx+b, what is slope and some basic like pi, tan45,e value, logistic regression, threshold value of LR, ROC curve, Bell curve, Standard normal distribution, Confusion matrix, accuracy, sensitivity and specificity, Conditional probability and Bayes theorem, Lots of other statistics concepts that I never heard before, -------overall the style of interview depends on the interviewer, be thorough with your basics and every word on your resume
 4) HR- Virtual - Discussion about company, my goals, how internship will benefit me, biggest life lesson from college apart from academics and general questions.","1) T1- Discussion about resume and internships, python theoretical questions, sql theoretical questions, codes like palindrome, hash-maps or dictionaries, python data structures, queries like second highest salary, common table expressions etc.
 2) T2- Interview was taken by Lead ML engineer, no python and sql questions asked, discussion started with ML and projects, topics like collinearity, curse of dimensionality, one hot encoding, under-sampling and oversampling, ML models, linear regression equations and best fit had to be judges based on a graph drawn by the interviewer, epsilon or bias meaning in wx+b, what is slope and some basic like pi, tan45,e value, logistic regression, threshold value of LR, ROC curve, Bell curve, Standard normal distribution, Confusion matrix, accuracy, sensitivity and specificity, Conditional probability and Bayes theorem, Lots of other statistics concepts that I never heard before, -------overall the style of interview depends on the interviewer, be thorough with your basics and every word on your resume","Python, SQL","For Python programming- takeuforward.org, neetcode.io
 For SQL - datalemur.com(for those who do not prefer video tutorials, can use the Learn SQL feature for free), sqlZOO.net
 For Aptitude - R.S. Aggarwal Quantitative Aptitude book.",
BE-ISE,Siddhartha Rakshit,1CR21IS155,7 Eleven,"8LPA FTE, 30k internship",,,,why should we hire you? What do you know about 7 eleven? strength and weakness? why am i interested in this role?,"windows function in SQL, all different kinds of join in MySQL with syntax , situation based SQL questions solutions with codes , basic python theory questions like difference between list and array , tuple and sets and medium situation based coding questions(python)",situation based SQL and python questions solutions with codes,youtube and Chatgpt,
