Branch,student_name,university_seat_number,Name of the Company/Drive,CTC offered,"Provide aptitude round/test details( Quantitative aptitude, Reasoning and Verbal ability )",Provide JAM session details if any,Provide group discussion details if any,Provide Personal Interview experience. List out the questions asked in personal interaction round.,Provide the list of technical questions asked during the interview (technical subject related),Provide the list of programming questions asked during the selection process. Also mention the programming language.
BE-CSE,Hari Prasad B,1CR21CS069,Surewaves,7.5 LPA,"They asked basic aptitude questions and verbal reasoning and code snippets output,logical reasoning",No Jam session was conducted,No group discussion was conducted,"Personal information introduction 
 Resume based questions about project,internships,hobbies","They asked 1 coding question and 2 SQL questions 
 Oops fundamental concepts 
 Databases like NoSql, MySQL related questions","Buy sell and stock prices coding question in python
 2 SQL based questions were asked like 
 1)retrieve the total no of students in each department 
 2)order them in descending order"
BE-ISE,Priyanshu Kumar,1CR21IS121,Surewave,7.5,"Questions based on:
 River and stream
 Train man problem 
 Relationship tree
 Logical reasoning",,,"1)What are your interest and hobbies
 2)What are your strengths and weakness while working in a team
 3)What do you do apart from your studies
 4)Tell me about yourself and what are your field of interest","1)What is relational and non-relational database 
 2)What are transactions in dbms
 3)Tell me about ACID principals in dbms
 4) Similarly some more questions related to dbms
 5)OOPS concepts with real life examples
 6)Questions related to projects and its implementation","1)There are two strings given s1 and s2. Find if s2 is anagram of s1 or not
 2)Find if a number exists strictly more than the size/2 of an array
 3)Simple sql queries 
 4)There are n number of people and there are n number of bulbs, person 1 comes and toggle bulbs 1,2,3...n, then person 2 comes and toggle bulbs 2,4,6...n, then person 3 comes and toggle bulbs 3,6,9...n.
 Find which bulbs will be lit at the end."
