Branch,Name,USN,Name of the Company/Drive,CTC offered,"Provide aptitude round/test details( Quantitative aptitude, Reasoning and Verbal ability )",Provide JAM session details if any,Provide group discussion details if any,Provide Personal Interview experience. List out the questions asked in personal interaction round.,Provide the list of technical questions asked during the interview (technical subject related),Provide the list of programming questions asked during the selection process. Also mention the programming language.,"Online Exam Pattern
","Important Links for Placement Preparation
"
BE-ECE,CHANDANA S,1CR22EC044,Covallence,4.2 LPA,Written test with one question to design a ai related solution,No,No,"About projects, questions related to your favourite project.",What is ip and it's full form,No,No,
BE-ECE,K Shravani,1CR22EC106,Covallence,4.2 LPA,Write an essay on AI powered traffic light control ,,,"1.Tell me about yourself 
2.Tell me about your current project and a few questions based on the project.","Technical questions related to my project.
About frequency, wifi and current distribution",,,https://chatgpt.com/share/6912f502-226c-800f-a27a-27daf23ac886
BE-ECE,Medha,1CR22EC140,Covallence,4.2,Writing on AI based traffic control,-,-,"Mainly about the projects, regarding core subject knowledge on the basis of your liking on subjects and basic electronics question",About wifi networks fourier transform multiplexer,-,-,-
BE-ECE,Navya Shree H S,1CR22EC150,Covallence,4.2LPA,Pen and paper test - Describe an innovative approach with its architecture and block diagram on the topic AI based traffic controller,Nil,Nil,Nil,"1. Tell us about yourself 
2. Future plans ( companies you're aiming for)
3. Favourite subject ( further questions asked based on the subject you tell)
4. Universal gates
5. Interchannel interference
6. Sample and hold circuits
7. ADC
8. Opamps
9. IC fabrication",Nil,Pen and paper offline test,
BE-ECE,Lavanya KR,1CR22EC130,Covallence,4.2 LPA,"We were asked to write a rough backend idea on AI based traffic light controller, how using of AI with existing system improves the system.",,,"- Tell me about yourself 
- Can you explain your projects (emphasized more on embedded project)
- Op-amp amplifier (figure & explanation) 
- Embedded system (explanation & example)
- I/O devices 
- Supervised learning (machine learning)",Supervised learning (machine learning),,,
